{
  "resourceType": "Bundle",
  "id": "medium-test-bundle",
  "type": "collection",
  "timestamp": "2024-01-15T14:30:00Z",
  "total": 5,
  "entry": [
    {
      "resource": {
        "resourceType": "Patient",
        "id": "patient-789",
        "identifier": [
          {
            "system": "http://hospital.example.org/patients",
            "value": "P789012"
          },
          {
            "system": "http://national.example.org/ssn",
            "value": "123-45-6789"
          }
        ],
        "name": [
          {
            "family": "Smith",
            "given": ["Jane", "Marie"],
            "prefix": ["Dr."]
          }
        ],
        "gender": "female",
        "birthDate": "1975-08-22",
        "address": [
          {
            "line": ["456 Oak Avenue", "Apt 2B"],
            "city": "Springfield",
            "state": "IL",
            "postalCode": "62701",
            "country": "US"
          }
        ],
        "telecom": [
          {
            "system": "phone",
            "value": "+1-555-987-6543",
            "use": "work"
          },
          {
            "system": "email",
            "value": "jane.smith@example.com",
            "use": "work"
          }
        ],
        "maritalStatus": {
          "coding": [
            {
              "system": "http://terminology.hl7.org/CodeSystem/v3-MaritalStatus",
              "code": "M",
              "display": "Married"
            }
          ]
        }
      }
    },
    {
      "resource": {
        "resourceType": "Encounter",
        "id": "encounter-101",
        "status": "finished",
        "class": {
          "system": "http://terminology.hl7.org/CodeSystem/v3-ActCode",
          "code": "AMB",
          "display": "ambulatory"
        },
        "type": [
          {
            "coding": [
              {
                "system": "http://snomed.info/sct",
                "code": "185349003",
                "display": "Encounter for check up"
              }
            ]
          }
        ],
        "subject": {
          "reference": "Patient/patient-789"
        },
        "period": {
          "start": "2024-01-15T14:00:00Z",
          "end": "2024-01-15T15:00:00Z"
        }
      }
    },
    {
      "resource": {
        "resourceType": "Observation",
        "id": "observation-201",
        "status": "final",
        "category": [
          {
            "coding": [
              {
                "system": "http://terminology.hl7.org/CodeSystem/observation-category",
                "code": "vital-signs"
              }
            ]
          }
        ],
        "code": {
          "coding": [
            {
              "system": "http://loinc.org",
              "code": "8480-6",
              "display": "Systolic blood pressure"
            }
          ]
        },
        "subject": {
          "reference": "Patient/patient-789"
        },
        "encounter": {
          "reference": "Encounter/encounter-101"
        },
        "effectiveDateTime": "2024-01-15T14:30:00Z",
        "valueQuantity": {
          "value": 120,
          "unit": "mmHg",
          "system": "http://unitsofmeasure.org",
          "code": "mm[Hg]"
        }
      }
    },
    {
      "resource": {
        "resourceType": "Observation",
        "id": "observation-202",
        "status": "final",
        "category": [
          {
            "coding": [
              {
                "system": "http://terminology.hl7.org/CodeSystem/observation-category",
                "code": "vital-signs"
              }
            ]
          }
        ],
        "code": {
          "coding": [
            {
              "system": "http://loinc.org",
              "code": "8462-4",
              "display": "Diastolic blood pressure"
            }
          ]
        },
        "subject": {
          "reference": "Patient/patient-789"
        },
        "encounter": {
          "reference": "Encounter/encounter-101"
        },
        "effectiveDateTime": "2024-01-15T14:30:00Z",
        "valueQuantity": {
          "value": 80,
          "unit": "mmHg",
          "system": "http://unitsofmeasure.org",
          "code": "mm[Hg]"
        }
      }
    },
    {
      "resource": {
        "resourceType": "DiagnosticReport",
        "id": "diagnosticreport-301",
        "status": "final",
        "category": [
          {
            "coding": [
              {
                "system": "http://terminology.hl7.org/CodeSystem/v2-0074",
                "code": "LAB"
              }
            ]
          }
        ],
        "code": {
          "coding": [
            {
              "system": "http://loinc.org",
              "code": "58410-2",
              "display": "Complete blood count (hemogram) panel - Blood by Automated count"
            }
          ]
        },
        "subject": {
          "reference": "Patient/patient-789"
        },
        "encounter": {
          "reference": "Encounter/encounter-101"
        },
        "effectiveDateTime": "2024-01-15T14:45:00Z",
        "conclusion": "Normal complete blood count results"
      }
    }
  ]
}